File: Tensile Data 50 Deg C.txt
Time        Displacement        Load
sec        mm        kN
14.0957        0.001578002        -0.005451377
14.6934        0.007041655        0.04918399
15.291        0.0139245        0.117699
15.8887        0.0193906        0.164697
16.4863        0.0238462        0.24156
17.084        0.03093524        0.311437
17.6816        0.0339122        0.377516
18.2793        0.0411475        0.454835
18.877        0.0453091        0.540866
19.4746        0.0526148        0.600238
20.0723        0.05883805        0.690162
20.6699        0.0647634        0.78536
21.2676        0.0737092        0.849113
21.8652        0.0763719        0.954662
22.4629        0.0811527        1.04654
23.0605        0.0892419        1.14282
23.6582        0.0937537        1.23733
24.2559        0.100171        1.32683
24.8535        0.104998        1.44332
25.4512        0.110772        1.53325
26.0488        0.116927        1.65053
26.6465        0.122041        1.75412
27.2441        0.127194        1.88256
27.8418        0.133835        1.98912
28.4395        0.139623        2.11853
29.0371        0.14527        2.25298
29.6348        0.15167        2.37324
30.2324        0.155781        2.51185
30.8301        0.16211        2.64354
31.4277        0.165937        2.78302
32.0254        0.174634        2.89635
32.623        0.182751        3.0512
33.2207        0.186088        3.1711
33.8184        0.191518        3.31513
34.416        0.196518        3.4459
35.0137        0.204609        3.58164
35.6113        0.20833        3.73644
36.209        0.213578        3.85747
36.8066        0.219554        3.99807
37.4043        0.224986        4.13689
38.002        0.234947        4.28205
38.5996        0.238521        4.43054
39.1973        0.241929        4.57693
39.7949        0.248545        4.73283
40.3926        0.25427        4.88805
40.9902        0.257882        5.05254
41.5879        0.264817        5.19344
42.1855        0.270649        5.35277
42.7832        0.276092        5.49397
43.3809        0.281976        5.66409
43.9785        0.288995        5.84164
44.5762        0.294976        5.96972
45.1738        0.300385        6.14639
45.7715        0.305526        6.29324
46.3691        0.312211        6.47063
46.9668        0.316174        6.62941
47.5645        0.32284        6.78562
48.1621        0.328618        6.96436
48.7598        0.332817        7.11702
49.3574        0.339651        7.28676
49.9551        0.345404        7.42859
50.5527        0.35123        7.59337
51.1504        0.356713        7.75231
51.748        0.364526        7.92108
52.3457        0.36899        8.07309
52.9434        0.373419        8.22735
53.541        0.380228        8.38283
54.1387        0.386457        8.54553
54.7363        0.391981        8.70458
55.334        0.397584        8.85448
55.9316        0.403061        9.03773
56.5293        0.409079        9.1818
57.127        0.414687        9.34761
57.7246        0.419674        9.51085
58.3223        0.424356        9.6489
58.9199        0.431117        9.81603
59.5176        0.436431        9.95699
60.1152        0.442677        10.1267
60.7129        0.450428        10.2868
61.3105        0.453461        10.4345
61.9082        0.460799        10.5911
62.5059        0.465911        10.7383
63.1035        0.47092        10.9006
63.7012        0.476995        11.0372
64.2988        0.484035        11.2057
64.8965        0.490032        11.33
65.4941        0.494741        11.4799
66.0918        0.500728        11.603
66.6895        0.505257        11.7522
67.2871        0.511561        11.8721
67.8848        0.517277        11.9657
68.4824        0.523431        12.091
69.0801        0.5296        12.1788
69.6777        0.535445        12.297
70.2754        0.540701        12.3743
70.873        0.544609        12.4797
71.4707        0.552701        12.5891
72.0684        0.557727        12.6782
72.666        0.564009        12.7915
73.2637        0.568965        12.8732
73.8613        0.574624        12.9866
74.459        0.579101        13.0537
75.0566        0.585999        13.1803
75.6543        0.593854        13.2665
76.252        0.599328        13.3567
76.8496        0.604408        13.4702
77.4473        0.609475        13.5461
78.0449        0.615305        13.6544
78.6426        0.621547        13.7163
79.2402        0.628537        13.8175
79.8379        0.633187        13.9121
80.4355        0.638368        14.0086
81.0332        0.643508        14.0928
81.6309        0.648883        14.1641
82.2285        0.655545        14.2704
82.8262        0.661098        14.3336
83.4238        0.666857        14.4314
84.0215        0.671352        14.5009
84.6191        0.678605        14.5892
85.2168        0.683588        14.6625
85.8145        0.689583        14.7532
86.4121        0.695238        14.8371
87.0098        0.701656        14.9054
87.6074        0.707048        14.9873
88.2051        0.712518        15.0542
88.8027        0.720875        15.1421
89.4004        0.72491        15.2001
89.998        0.729866        15.2744
90.5957        0.735371        15.3458
91.1934        0.740391        15.3981
91.791        0.748701        15.4801
92.3887        0.753741        15.5305
92.9863        0.758805        15.6162
93.584        0.764607        15.6722
94.1816        0.771727        15.7294
94.7793        0.776191        15.7792
95.377        0.782568        15.8571
95.9746        0.787258        15.9074
96.5723        0.793793        15.9581
97.1699        0.799813        16.0253
97.7676        0.805882        16.0664
98.3652        0.810918        16.1318
98.9629        0.816171        16.165
99.5605        0.822055        16.2281
100.158        0.827479        16.2766
100.756        0.831901        16.3162
101.354        0.839164        16.3866
101.951        0.844974        16.4078
102.549        0.849818        16.469
103.146        0.857498        16.4994
103.744        0.86224        16.5437
104.342        0.868693        16.5903
104.939        0.87414        16.6303
105.537        0.879994        16.6734
106.135        0.887127        16.7125
106.732        0.892477        16.7669
107.33        0.896457        16.7739
107.928        0.903775        16.8378
108.525        0.908387        16.8535
109.123        0.913284        16.9042
109.721        0.920862        16.9453
110.318        0.925711        16.9541
110.916        0.930651        17.0093
111.514        0.936926        17.0191
112.111        0.942526        17.0717
112.709        0.950082        17.0994
113.307        0.954378        17.1369
113.904        0.960846        17.1638
114.502        0.96686        17.2001
115.1        0.971276        17.24
115.697        0.977357        17.2601
116.295        0.984092        17.2971
116.893        0.990074        17.3144
117.49        0.995296        17.3681
118.088        1.00107        17.3766
118.686        1.00631        17.4113
119.283        1.01252        17.4468
119.881        1.01746        17.4457
120.479        1.02378        17.5014
121.076        1.02956        17.5179
121.674        1.03469        17.5543
122.271        1.04162        17.5675
122.869        1.04535        17.6054
123.467        1.05148        17.6363
124.064        1.05753        17.6483
124.662        1.06313        17.676
125.26        1.06826        17.6907
125.857        1.07433        17.7452
126.455        1.08069        17.7512
127.053        1.08558        17.7872
127.65        1.09246        17.7992
128.248        1.0996        17.8298
128.846        1.10277        17.8601
129.443        1.11042        17.8769
130.041        1.11635        17.9123
130.639        1.12062        17.926
131.236        1.12711        17.968
131.834        1.13219        17.9792
132.432        1.13798        17.9979
133.029        1.14306        18.0191
133.627        1.14835        18.035
134.225        1.15586        18.0781
134.822        1.16081        18.0844
135.42        1.16553        18.1161
136.018        1.17228        18.1268
136.615        1.17793        18.1709
137.213        1.18237        18.1706
137.811        1.18927        18.2041
138.408        1.19523        18.2119
139.006        1.2003        18.2331
139.604        1.2066        18.2733
140.201        1.21338        18.2805
140.799        1.21843        18.312
141.396        1.22466        18.3196
141.994        1.22857        18.3442
142.592        1.2356        18.3638
143.189        1.24216        18.3869
143.787        1.2485        18.4102
144.385        1.2535        18.424
144.982        1.25913        18.447
145.58        1.26039        18.4531
146.178        1.2695        18.4895
146.775        1.27549        18.4994
147.373        1.28167        18.5363
147.971        1.28764        18.5445
148.568        1.29385        18.5556
149.166        1.29898        18.5851
149.764        1.304        18.5813
150.361        1.30902        18.6158
150.959        1.31502        18.6321
151.557        1.32205        18.6495
152.154        1.32687        18.6674
152.752        1.33278        18.6891
153.35        1.33845        18.701
153.947        1.34489        18.7107
154.545        1.35056        18.7587
155.143        1.35588        18.7508
155.74        1.36195        18.7743
156.338        1.36751        18.784
156.936        1.37419        18.8111
157.533        1.37874        18.8171
158.131        1.38452        18.8314
158.729        1.39077        18.876
159.326        1.39727        18.8635
159.924        1.40173        18.8998
160.521        1.40775        18.9063
161.119        1.41431        18.9111
161.717        1.41913        18.9335
162.314        1.42412        18.95
162.912        1.42989        18.9702
163.51        1.43619        18.9768
164.107        1.44255        19.0091
164.705        1.44827        19.0077
165.303        1.45496        19.0507
165.9        1.45901        19.0328
166.498        1.46674        19.0653
167.096        1.47065        19.0801
167.693        1.47755        19.0848
168.291        1.48471        19.1105
168.889        1.48908        19.1097
169.486        1.49321        19.1473
170.084        1.49904        19.1502
170.682        1.50618        19.1665
171.279        1.51335        19.1825
171.877        1.51717        19.1869
172.475        1.52269        19.1964
173.072        1.53021        19.2128
173.67        1.53347        19.2375
174.268        1.53983        19.2298
174.865        1.54487        19.2566
175.463        1.55065        19.2581
176.061        1.55668        19.2914
176.658        1.56294        19.2994
177.256        1.5686        19.2987
177.854        1.57526        19.3324
178.451        1.58119        19.3272
179.049        1.58528        19.3578
179.646        1.59318        19.3614
180.244        1.59699        19.3753
180.842        1.60377        19.3885
181.439        1.60666        19.3862
182.037        1.61467        19.4119
182.635        1.62103        19.4179
183.232        1.62583        19.4599
183.83        1.62828        19.4295
184.428        1.63877        19.4588
185.025        1.64276        19.4563
185.623        1.6487        19.4791
186.221        1.65414        19.5069
186.818        1.66075        19.4997
187.416        1.66528        19.5335
188.014        1.67261        19.5304
188.611        1.67743        19.5493
189.209        1.68294        19.5447
189.807        1.68835        19.5591
190.404        1.69525        19.5693
191.002        1.69959        19.5697
191.6        1.70612        19.6011
192.197        1.71218        19.6046
192.795        1.71712        19.6312
193.393        1.72272        19.6264
193.99        1.72911        19.6449
194.588        1.735        19.6397
195.186        1.74004        19.6533
195.783        1.74725        19.6815
196.381        1.75273        19.6682
196.979        1.75708        19.6887
197.576        1.76307        19.6909
198.174        1.76896        19.7165
198.771        1.77528        19.7165
199.369        1.78188        19.7315
199.967        1.78614        19.7366
200.564        1.7925        19.7395
201.162        1.79762        19.7767
201.76        1.8032        19.7554
202.357        1.80876        19.78
202.955        1.81469        19.7921
203.553        1.82056        19.8084
204.15        1.82608        19.8075
204.748        1.83359        19.8253
205.346        1.8359        19.8183
205.943        1.84436        19.8209
206.541        1.85013        19.8602
207.139        1.8555        19.8423
207.736        1.86124        19.8559
208.334        1.86635        19.8667
208.932        1.87339        19.8866
209.529        1.87721        19.8883
210.127        1.88772        19.9031
210.725        1.89028        19.9175
211.322        1.89528        19.9031
211.92        1.90052        19.9391
212.518        1.90628        19.9088
213.115        1.91234        19.9469
213.713        1.91777        19.9346
214.311        1.92462        19.9447
214.908        1.92907        19.9688
215.506        1.93716        19.9649
216.104        1.94127        19.9861
216.701        1.94625        19.9917
217.299        1.95267        20.0011
217.896        1.95813        19.9895
218.494        1.9644        20.0185
219.092        1.96898        20.0042
219.689        1.97402        20.0261
220.287        1.98139        20.0365
220.885        1.98845        20.0376
221.482        1.99375        20.0631
222.08        1.99834        20.0502
222.678        2.00327        20.0634
223.275        2.01119        20.067
223.873        2.01682        20.0691
224.471        2.0221        20.1021
225.068        2.02863        20.0726
225.666        2.03369        20.116
226.264        2.03896        20.1073
226.861        2.04434        20.1154
227.459        2.05073        20.1212
228.057        2.05676        20.1332
228.654        2.06143        20.1287
229.252        2.06923        20.1384
229.85        2.07354        20.1588
230.447        2.07878        20.1525
231.045        2.08578        20.1679
231.643        2.09108        20.1563
232.24        2.09411        20.1762
232.838        2.10216        20.1731
233.436        2.10932        20.1837
234.033        2.1125        20.207
234.631        2.1192        20.1935
235.229        2.12686        20.2217
235.826        2.13058        20.2117
236.424        2.13586        20.221
237.021        2.14186        20.2191
237.619        2.14876        20.2262
238.217        2.15268        20.2291
238.814        2.15899        20.2429
239.412        2.16561        20.2534
240.01        2.16967        20.235
240.607        2.17714        20.2725
241.205        2.18314        20.2577
241.803        2.18834        20.2831
242.4        2.19336        20.2805
242.998        2.19832        20.274
243.596        2.20384        20.2905
244.193        2.2108        20.2846
244.791        2.21683        20.3057
245.389        2.22214        20.2973
245.986        2.22835        20.3144
246.584        2.23388        20.307
247.182        2.2388        20.3108
247.779        2.24479        20.3197
248.377        2.25324        20.3279
248.975        2.256        20.3303
249.572        2.2629        20.328
250.17        2.2689        20.35
250.768        2.27561        20.3483
251.365        2.28003        20.3613
251.963        2.28564        20.3658
252.561        2.29199        20.3699
253.158        2.29581        20.3666
253.756        2.30266        20.3698
254.354        2.3089        20.3728
254.951        2.31459        20.3776
255.549        2.31924        20.3987
256.146        2.326        20.3942
256.744        2.33124        20.3953
257.342        2.33699        20.3886
257.939        2.34163        20.3939
258.537        2.34885        20.4118
259.135        2.35363        20.4038
259.732        2.36164        20.4264
260.33        2.36635        20.4134
260.928        2.37061        20.4191
261.525        2.37803        20.4324
262.123        2.38329        20.4366
262.721        2.38932        20.4395
263.318        2.39394        20.4356
263.916        2.39987        20.4524
264.514        2.40653        20.4437
265.111        2.41192        20.473
265.709        2.41661        20.4592
266.307        2.42392        20.4633
266.904        2.42802        20.4659
267.502        2.43446        20.4735
268.1        2.44082        20.4889
268.697        2.44633        20.47
269.295        2.45187        20.4922
269.893        2.45777        20.4727
270.49        2.46301        20.492
271.088        2.47018        20.4921
271.686        2.47455        20.4956
272.283        2.47742        20.4912
272.881        2.48583        20.4976
273.479        2.49314        20.5228
274.076        2.49788        20.4997
274.674        2.50349        20.5295
275.271        2.50883        20.5094
275.869        2.51526        20.5176
276.467        2.52167        20.5235
277.064        2.52623        20.5232
277.662        2.53318        20.5411
278.26        2.53856        20.5321
278.857        2.54422        20.5484
279.455        2.54826        20.5351
280.053        2.55508        20.5466
280.65        2.56162        20.537
281.248        2.56693        20.5449
281.846        2.57165        20.5393
282.443        2.57791        20.5492
283.041        2.58396        20.5728
283.639        2.58982        20.5599
284.236        2.59553        20.5738
284.834        2.60024        20.5612
285.432        2.60929        20.5754
286.029        2.61222        20.5696
286.627        2.62097        20.5802
287.225        2.62393        20.5973
287.822        2.6299        20.5748
288.42        2.63665        20.5885
289.018        2.64182        20.5904
289.615        2.64702        20.5878
290.213        2.6533        20.5812
290.811        2.65861        20.6069
291.408        2.66496        20.5948
292.006        2.67002        20.5953
292.604        2.67635        20.6121
293.201        2.68268        20.5978
293.799        2.68776        20.6319
294.396        2.69392        20.6033
294.994        2.69808        20.6021
295.592        2.70476        20.6072
296.189        2.70986        20.611
296.787        2.71571        20.6091
297.385        2.72176        20.6157
297.982        2.72766        20.6286
298.58        2.73284        20.617
299.178        2.73793        20.6302
299.775        2.74517        20.6248
300.373        2.7503        20.6385
300.971        2.75413        20.6334
301.568        2.76133        20.6209
302.166        2.76936        20.6412
302.764        2.77317        20.6253
303.361        2.7799        20.6595
303.959        2.78626        20.6373
304.557        2.79048        20.6458
305.154        2.79616        20.6499
305.752        2.80176        20.6449
306.35        2.80805        20.6478
306.947        2.81125        20.646
307.545        2.81917        20.6589
308.143        2.82433        20.6372
308.74        2.83        20.6583
309.338        2.83605        20.6429
309.936        2.83903        20.6578
310.533        2.84801        20.6613
311.131        2.85466        20.6518
311.729        2.85982        20.666
312.326        2.86594        20.6622
312.924        2.86916        20.6692
313.521        2.87637        20.667
314.119        2.88138        20.6629
314.717        2.88999        20.6646
315.314        2.89399        20.6727
315.912        2.89874        20.6765
316.51        2.90463        20.6598
317.107        2.9092        20.6754
317.705        2.91669        20.6573
318.303        2.92351        20.685
318.9        2.92945        20.6761
319.498        2.93354        20.6741
320.096        2.93952        20.6788
320.693        2.94665        20.6776
321.291        2.95002        20.6895
321.889        2.95604        20.669
322.486        2.96314        20.6972
323.084        2.96705        20.6723
323.682        2.97301        20.6895
324.279        2.98036        20.683
324.877        2.9848        20.6782
325.475        2.99174        20.707
326.072        2.99715        20.6717
326.67        3.0031        20.7034
327.268        3.00806        20.6771
327.865        3.01456        20.6875
328.463        3.01928        20.6882
329.061        3.02587        20.6983
329.658        3.03232        20.6934
330.256        3.03646        20.6901
330.854        3.04224        20.707
331.451        3.04692        20.67825
332.049        3.05527        20.7012
332.646        3.06012        20.6979
333.244        3.06648        20.705
333.842        3.07195        20.6925
334.439        3.07714        20.6799
335.037        3.0834        20.6995
335.635        3.08843        20.6825
336.232        3.09354        20.7124
336.83        3.10079        20.6932
337.428        3.10599        20.7105
338.025        3.11162        20.7065
338.623        3.11706        20.6997
339.221        3.12137        20.7023
339.818        3.12852        20.7054
340.416        3.13276        20.7152
341.014        3.14175        20.6964
341.611        3.14498        20.7161
342.209        3.1521        20.7055
342.807        3.15773        20.7121
343.404        3.16349        20.6965
344.002        3.16953        20.6922
344.6        3.17374        20.7143
345.197        3.18051        20.6939
345.795        3.18688        20.714
346.393        3.19207        20.6969
346.99        3.19703        20.7102
347.588        3.20333        20.7016
348.186        3.20908        20.709
348.783        3.21587        20.7089
349.381        3.22113        20.698
349.979        3.22756        20.7089
350.576        3.23071        20.7015
351.174        3.2379        20.7173
351.771        3.2445        20.704
352.369        3.24876        20.7143
352.967        3.25496        20.7173
353.564        3.26111        20.7033
354.162        3.26959        20.7186
354.76        3.27359        20.6969
355.357        3.27671        20.7019
355.955        3.2831        20.6999
356.553        3.28957        20.7125
357.15        3.2946        20.6991
357.748        3.30161        20.7158
358.346        3.30678        20.7074
358.943        3.31216        20.69275
359.541        3.31816        20.7118
360.139        3.32504        20.6846
360.736        3.33025        20.7222
361.334        3.33509        20.6977
361.932        3.34148        20.7011
362.529        3.34687        20.698
363.127        3.3526        20.6906
363.725        3.35779        20.6943
364.322        3.36473        20.6934
364.92        3.37045        20.7053
365.518        3.37549        20.688
366.115        3.3813        20.7074
366.713        3.38819        20.6963
367.311        3.39104        20.6913
367.908        3.39894        20.7092
368.506        3.40517        20.6864
369.104        3.41087        20.7056
369.701        3.41663        20.6786
370.299        3.42321        20.701
370.896        3.42735        20.6838
371.494        3.43309        20.6882
372.092        3.43877        20.6882
372.689        3.44491        20.6834
373.287        3.45246        20.6986
373.885        3.45492        20.6759
374.482        3.46276        20.6948
375.08        3.46754        20.6776
375.678        3.47346        20.6888
376.275        3.47794        20.6923
376.873        3.4848        20.6837
377.471        3.49231        20.6928
378.068        3.49567        20.6744
378.666        3.50247        20.683
379.264        3.50668        20.6745
379.861        3.51324        20.6793
380.459        3.51945        20.6731
381.057        3.52535        20.6767
381.654        3.52972        20.6748
382.252        3.53646        20.6739
382.85        3.54224        20.6794
383.447        3.54854        20.6591
384.045        3.55359        20.6752
384.643        3.55895        20.6609
385.24        3.5655        20.6775
385.838        3.57186        20.6701
386.436        3.57728        20.6636
387.033        3.58376        20.6662
387.631        3.58839        20.6645
388.229        3.59344        20.669
388.826        3.60122        20.6548
389.424        3.6046        20.6611
390.021        3.6109        20.6473
390.619        3.61731        20.6645
391.217        3.62224        20.6661
391.814        3.62798        20.6436
392.412        3.63483        20.6637
393.01        3.63966        20.6422
393.607        3.64538        20.652
394.205        3.65065        20.6373
394.803        3.65625        20.6483
395.4        3.66273        20.6477
395.998        3.66843        20.6478
396.596        3.67451        20.6355
397.193        3.67898        20.637
397.791        3.68494        20.64225
398.389        3.69029        20.6235
398.986        3.69935        20.6388
399.584        3.70373        20.6272
400.182        3.70917        20.634
400.779        3.71452        20.6302
401.377        3.72035        20.6159
401.975        3.72545        20.6321
402.572        3.73176        20.613
403.17        3.73822        20.6355
403.768        3.74226        20.6003
404.365        3.74852        20.6142
404.963        3.75527        20.6276
405.561        3.75914        20.6031
406.158        3.76708        20.6207
406.756        3.77167        20.5984
407.354        3.77492        20.6118
407.951        3.7828        20.5898
408.549        3.78855        20.6035
409.146        3.79423        20.588
409.744        3.80102        20.603
410.342        3.8055        20.5855
410.939        3.81414        20.5979
411.537        3.817        20.5947
412.135        3.82341        20.57825
412.732        3.83008        20.6073
413.33        3.83283        20.5684
413.928        3.84062        20.5886
414.525        3.84522        20.5768
415.123        3.8515        20.5671
415.721        3.85781        20.5754
416.318        3.86269        20.5555
416.916        3.8704        20.5727
417.514        3.87384        20.5529
418.111        3.88021        20.5673
418.709        3.88701        20.5561
419.307        3.89192        20.5547
419.904        3.89798        20.5409
420.502        3.90398        20.549
421.1        3.9093        20.5489
421.697        3.91563        20.53
422.295        3.91827        20.5473
422.893        3.92755        20.5217
423.49        3.93138        20.5306
424.088        3.93897        20.5312
424.686        3.94567        20.5119
425.283        3.9494        20.5276
425.881        3.95645        20.5041
426.479        3.96048        20.5328
427.076        3.96931        20.5011
427.674        3.97226        20.5121
428.271        3.97762        20.4907
428.869        3.98395        20.4936
429.467        3.98762        20.4927
430.064        3.9956        20.4843
430.662        4.00112        20.4989
431.26        4.00639        20.4662
431.857        4.01585        20.4926
432.455        4.01755        20.457
433.053        4.02352        20.4746
433.65        4.02983        20.4625
434.248        4.03738        20.4531
434.846        4.04081        20.467
435.443        4.04667        20.4428
436.041        4.0519        20.4557
436.639        4.05871        20.4366
437.236        4.06547        20.4463
437.834        4.0703        20.4413
438.432        4.07616        20.4406
439.029        4.08162        20.4285
439.627        4.08819        20.4265
440.225        4.09224        20.4282
440.822        4.09916        20.4089
441.42        4.10417        20.4133
442.018        4.11194        20.3924
442.615        4.1158        20.4072
443.213        4.12224        20.4004
443.811        4.12793        20.3793
444.408        4.13461        20.3965
445.006        4.13965        20.3733
445.604        4.14469        20.3904
446.201        4.1497        20.3655
446.799        4.15657        20.38
447.396        4.16194        20.346
447.994        4.16743        20.3562
448.592        4.173        20.3523
449.189        4.17928        20.3413
449.787        4.18481        20.338
450.385        4.18994        20.3192
450.982        4.19702        20.333
451.58        4.20223        20.3104
452.178        4.20852        20.3252
452.775        4.21298        20.3158
453.373        4.22044        20.3121
453.971        4.22598        20.3061
454.568        4.23063        20.2863
455.166        4.23754        20.2998
455.764        4.24254        20.2749
456.361        4.24866        20.2824
456.959        4.25373        20.2714
457.557        4.26124        20.2665
458.154        4.26483        20.2585
458.752        4.27088        20.2459
459.35        4.27574        20.2432
459.947        4.28262        20.2371
460.545        4.28873        20.2366
461.143        4.29432        20.1951
461.74        4.29952        20.2283
462.338        4.307        20.2048
462.936        4.3109        20.2116
463.533        4.31688        20.2081
464.131        4.32257        20.1827
464.729        4.32677        20.1981
465.326        4.33382        20.1681
465.924        4.34018        20.1822
466.521        4.34627        20.1658
467.119        4.34835        20.1706
467.717        4.35539        20.1434
468.314        4.36429        20.1526
468.912        4.36833        20.1386
469.51        4.37436        20.1269
470.107        4.37896        20.1214
470.705        4.38428        20.1044
471.303        4.39213        20.1266
471.9        4.39949        20.0965
472.498        4.40246        20.0958
473.096        4.40926        20.095
473.693        4.41346        20.0636
474.291        4.41994        20.0745
474.889        4.4258        20.0635
475.486        4.43247        20.0649
476.084        4.43722        20.0487
476.682        4.44165        20.046
477.279        4.4483        20.025
477.877        4.45376        20.019
478.475        4.45989        20.0166
479.072        4.46412        19.9912
479.67        4.47257        20.0244
480.268        4.4764        19.9883
480.865        4.48429        19.9994
481.463        4.49042        19.9737
482.061        4.49473        19.9714
482.658        4.50025        19.9663
483.256        4.50625        19.9454
483.854        4.51171        19.9415
484.451        4.51744        19.9316
485.049        4.52394        19.9364
485.646        4.52821        19.916
486.244        4.53284        19.9173
486.842        4.54036        19.9013
487.439        4.54536        19.8977
488.037        4.55131        19.8885
488.635        4.5576        19.8771
489.232        4.56367        19.8757
489.83        4.57019        19.8528
490.428        4.57539        19.8618
491.025        4.58034        19.8306
491.623        4.58521        19.8297
492.221        4.59166        19.8174
492.818        4.59677        19.8093
493.416        4.60345        19.8093
494.014        4.60939        19.7888
494.611        4.61306        19.7922
495.209        4.62057        19.7795
495.807        4.62713        19.7736
496.404        4.63263        19.77
497.002        4.63751        19.7622
497.6        4.64457        19.75
498.197        4.64941        19.7298
498.795        4.65485        19.7421
499.393        4.66043        19.6988
499.99        4.66641        19.7166
500.588        4.67331        19.7002
501.186        4.67747        19.6938
501.783        4.68447        19.686
502.381        4.68925        19.6589
502.979        4.69509        19.6674
503.576        4.70222        19.6458
504.174        4.70705        19.6535
504.771        4.71212        19.63
505.369        4.71958        19.6396
505.967        4.72394        19.6077
506.564        4.72736        19.6038
507.162        4.7361        19.5934
507.76        4.74078        19.5773
508.357        4.74713        19.5794
508.955        4.75379        19.5568
509.553        4.75803        19.5634
510.15        4.76431        19.5487
510.748        4.76962        19.5289
511.346        4.77438        19.5221
511.943        4.78056        19.4991
512.541        4.78839        19.4979
513.139        4.79243        19.4853
513.736        4.7984        19.4886
514.334        4.80392        19.4665
514.932        4.80953        19.4667
515.529        4.81608        19.4506
516.127        4.82174        19.4388
516.725        4.82745        19.4271
517.322        4.83444        19.4053
517.92        4.83893        19.4176
518.518        4.8445        19.388
519.115        4.84976        19.3944
519.713        4.8569        19.3815
520.311        4.86166        19.3507
520.908        4.86812        19.3619
521.506        4.87374        19.3433
522.104        4.87963        19.3429
522.701        4.88485        19.3108
523.299        4.88948        19.3098
523.896        4.89622        19.2913
524.494        4.90286        19.2917
525.092        4.90806        19.2742
525.689        4.91404        19.2588
526.287        4.92046        19.2542
526.885        4.9258        19.2424
527.482        4.93173        19.2369
528.08        4.93652        19.2028
528.678        4.94287        19.2046
529.275        4.94699        19.1934
529.873        4.95589        19.1777
530.471        4.95989        19.1796
531.068        4.96482        19.1598
531.666        4.97111        19.1581
532.264        4.97789        19.1357
532.861        4.98236        19.1323
533.459        4.98659        19.1063
534.057        4.99377        19.0908
534.654        4.99887        19.0855
535.252        5.00563        19.0784
535.85        5.00939        19.0619
536.447        5.01645        19.0609
537.045        5.02247        19.0389
537.643        5.02743        19.0189
538.24        5.03358        19.0222
538.838        5.04079        18.9998
539.436        5.04623        18.9874
540.033        5.05252        18.9756
540.631        5.05736        18.9532
541.229        5.06265        18.9593
541.826        5.06938        18.9314
542.424        5.07508        18.9377
543.021        5.07952        18.9068
543.619        5.08688        18.9111
544.217        5.09097        18.8922
544.814        5.09828        18.8756
545.412        5.10199        18.8654
546.01        5.1094        18.8437
546.607        5.11467        18.848
547.205        5.12058        18.815
547.803        5.12758        18.8357
548.4        5.13142        18.797
548.998        5.1382        18.7867
549.596        5.14325        18.7776
550.193        5.14907        18.7518
550.791        5.15498        18.7565
551.389        5.15865        18.7157
551.986        5.16635        18.7238
552.584        5.1723        18.7075
553.182        5.17812        18.695
553.779        5.18513        18.6754
554.377        5.18798        18.6609
554.975        5.19526        18.6471
555.572        5.19979        18.622
556.17        5.20518        18.6267
556.768        5.21167        18.6101
557.365        5.21802        18.5995
557.963        5.22198        18.574
558.561        5.22939        18.5757
559.158        5.23345        18.5485
559.756        5.23962        18.53
560.354        5.24632        18.5457
560.951        5.2522        18.4917
561.549        5.2574        18.5131
562.146        5.26397        18.4801
562.744        5.2684        18.4652
563.342        5.27334        18.4616
563.939        5.28016        18.4317
564.537        5.28642        18.4397
565.135        5.29203        18.4105
565.732        5.29562        18.3992
566.33        5.30259        18.3721
566.928        5.31135        18.38475
567.525        5.31518        18.3404
568.123        5.32039        18.3335
568.721        5.32581        18.3226
569.318        5.33276        18.3092
569.916        5.33827        18.3045
570.514        5.3428        18.2654
571.111        5.3502        18.2709
571.709        5.35507        18.2364
572.307        5.35971        18.2393
572.904        5.36693        18.2185
573.502        5.37166        18.2028
574.1        5.37833        18.1944
574.697        5.38488        18.1706
575.295        5.39104        18.1651
575.893        5.39597        18.1316
576.49        5.40159        18.128
577.088        5.40619        18.1059
577.686        5.41298        18.1058
578.283        5.41839        18.0754
578.881        5.42499        18.0524
579.479        5.43196        18.0458
580.076        5.43508        18.0123
580.674        5.44127        18.0244
581.271        5.44676        17.9964
581.869        5.45307        17.9926
582.467        5.45724        17.9626
583.064        5.46415        17.9546
583.662        5.47031        17.9488
584.26        5.47543        17.9087
584.857        5.48046        17.902
585.455        5.4859        17.8754
586.053        5.49269        17.8799
586.65        5.49944        17.8556
587.248        5.50376        17.8352
587.846        5.50995        17.8231
588.443        5.51531        17.8078
589.041        5.52348        17.7907
589.639        5.52897        17.764
590.236        5.53297        17.7613
590.834        5.5387        17.724
591.432        5.54645        17.7308
592.029        5.55067        17.6964
592.627        5.55565        17.6699
593.225        5.5615        17.6765
593.822        5.56737        17.6447
594.42        5.57358        17.6412
595.018        5.57863        17.6073
595.615        5.58538        17.6036
596.213        5.59056        17.5761
596.811        5.59584        17.5534
597.408        5.60364        17.5616
598.006        5.60707        17.5082
598.604        5.61317        17.5132
599.201        5.61896        17.483
599.799        5.62499        17.4803
600.396        5.63211        17.4461
600.994        5.63676        17.4364
601.592        5.64081        17.4137
602.189        5.65074        17.4071
602.787        5.654376        17.3928
603.385        5.65932        17.3431
603.982        5.66533        17.3521
604.58        5.67072        17.3193
605.178        5.67582        17.3243
605.775        5.68232        17.2913
606.373        5.68817        17.2736
606.971        5.69411        17.2602
607.568        5.70026        17.2305
608.166        5.70699        17.2322
608.764        5.71149        17.1886
609.361        5.7167        17.1838
609.959        5.7229        17.1559
610.557        5.72853        17.1558
611.154        5.73374        17.1209
611.752        5.73851        17.1033
612.35        5.74596        17.1027
612.947        5.75052        17.0582
613.545        5.75967        17.0587
614.143        5.76492        17.0224
614.74        5.76749        17.0197
615.338        5.77427        16.986
615.936        5.78106        16.9843
616.533        5.78739        16.9645
617.131        5.79187        16.9204
617.729        5.79793        16.9225
618.326        5.80131        16.8784
618.924        5.80889        16.8816
619.521        5.81343        16.8456
620.119        5.82082        16.8347
620.717        5.82532        16.8129
621.314        5.83159        16.7908
621.912        5.8378        16.7827
622.51        5.84298        16.7386
623.107        5.84797        16.7323
623.705        5.85503        16.7086
624.303        5.86        16.7059
624.9        5.86632        16.6628
625.498        5.87246        16.6676
626.096        5.87698        16.6394
626.693        5.88376        16.6005
627.291        5.88954        16.5943
627.889        5.89553        16.5616
628.486        5.90047        16.5511
629.084        5.90602        16.5158
629.682        5.91172        16.5057
630.279        5.91778        16.4807
630.877        5.92401        16.4634
631.475        5.92954        16.439
632.072        5.93544        16.4104
632.67        5.93985        16.4035
633.268        5.94626        16.3654
633.865        5.95132        16.3552
634.463        5.95865        16.325
635.061        5.96295        16.3075
635.658        5.96843        16.2922
636.256        5.97519        16.2535
636.854        5.98086        16.2459
637.451        5.98831        16.231
638.049        5.99049        16.216
638.646        5.99859        16.1733
639.244        6.00317        16.1687
639.842        6.00852        16.1298
640.439        6.01629        16.1118
641.037        6.02025        16.0954
641.635        6.02754        16.0609
642.232        6.03272        16.0514
642.83        6.03786        16.0161
643.428        6.04503        16.0092
644.025        6.05045        15.9756
644.623        6.05573        15.949
645.221        6.0621        15.9321
645.818        6.06602        15.8933
646.416        6.07174        15.8868
647.014        6.07871        15.8658
647.611        6.08375        15.8369
648.209        6.09073        15.8193
648.807        6.09717        15.7959
649.404        6.10316        15.7724
650.002        6.10725        15.7533
650.6        6.11314        15.7276
651.197        6.11778        15.6903
651.795        6.12377        15.6923
652.393        6.13036        15.649
652.99        6.13489        15.6344
653.588        6.14104        15.6074
654.186        6.14545        15.5757
654.783        6.15162        15.5581
655.381        6.15854        15.5279
655.979        6.16358        15.505
656.576        6.17104        15.467
657.174        6.17572        15.4683
657.771        6.18205        15.4387
658.369        6.18695        15.4088
658.967        6.19271        15.3846
659.564        6.19945        15.3506
660.162        6.2041        15.3332
660.76        6.20988        15.317
661.357        6.21646        15.2896
661.955        6.22244        15.2488
662.553        6.22842        15.2435
663.15        6.232        15.2007
663.748        6.23837        15.175
664.346        6.24561        15.166
664.943        6.2507        15.1288
665.541        6.25675        15.11475
666.139        6.26208        15.0771
666.736        6.26839        15.0594
667.334        6.27336        15.0198
667.932        6.27983        14.9999
668.529        6.28558        14.9796
669.127        6.29048        14.9459
669.725        6.29571        14.9241
670.322        6.30237        14.8986
670.92        6.30798        14.8681
671.518        6.3153        14.8357
672.115        6.31939        14.8335
672.713        6.32634        14.7876
673.311        6.33028        14.7713
673.908        6.33648        14.7359
674.506        6.34117        14.6982
675.104        6.34891        14.6936
675.701        6.35344        14.6475
676.299        6.35936        14.638
676.896        6.36373        14.5877
677.494        6.37059        14.5662
678.092        6.376334        14.5383
678.689        6.38111        14.5146
679.287        6.38859        14.4995
679.885        6.39413        14.4637
680.482        6.40132        14.4425
681.08        6.40559        14.4054
681.678        6.41074        14.3787
682.275        6.41765        14.3456
682.873        6.42274        14.3239
683.471        6.42862        14.2891
684.068        6.43615        14.2522
684.666        6.44118        14.2428
685.264        6.44615        14.197
685.861        6.45102        14.19
686.459        6.45623        14.1419
687.057        6.46186        14.1204
687.654        6.46916        14.0878
688.252        6.47274        14.065
688.85        6.48048        14.0418
689.447        6.48493        14.0002
690.045        6.49257        13.9855
690.643        6.49645        13.9363
691.24        6.50423        13.9133
691.838        6.5064        13.8758
692.436        6.51318        13.849
693.033        6.5209        13.8242
693.631        6.52472        13.7874
694.229        6.53123        13.7608
694.826        6.53738        13.7257
695.424        6.54315        13.7119
696.021        6.54745        13.6662
696.619        6.55378        13.6344
697.217        6.56007        13.6025
697.814        6.56724        13.5812
698.412        6.57179        13.5489
699.01        6.57671        13.5025
699.607        6.58355        13.4831
700.205        6.58896        13.4384
700.803        6.59335        13.424
701.4        6.59957        13.3823
701.998        6.60696        13.3589
702.596        6.61139        13.3226
703.193        6.61503        13.2937
703.791        6.62269        13.2661
704.389        6.62849        13.2268
704.986        6.63449        13.2023
705.584        6.64169        13.1611
706.182        6.64653        13.1363
706.779        6.65159        13.0953
707.377        6.65893        13.0549
707.975        6.66441        13.036
708.572        6.67035        12.9833
709.17        6.67618        12.978
709.768        6.68082        12.9201
710.365        6.68643        12.9022
710.963        6.69086        12.8693
711.561        6.6992        12.8322
712.158        6.70362        12.8061
712.756        6.70963        12.7579
713.354        6.71521        12.7478
713.951        6.72102        12.6891
714.549        6.72666        12.671
715.146        6.73159        12.6202
715.744        6.73816        12.5945
716.342        6.74343        12.5495
716.939        6.75079        12.5196
717.537        6.75477        12.4949
718.135        6.7613        12.4459
718.732        6.76619        12.4209
719.33        6.7725        12.3705
719.928        6.77826        12.3566
720.525        6.78524        12.3037
721.123        6.79044        12.2871
721.721        6.797        12.2422
722.318        6.80164        12.1949
722.916        6.80785        12.1751
723.514        6.81259        12.1229
724.111        6.82016        12.0908
724.709        6.824        12.0567
725.307        6.83083        12.0265
725.904        6.8368        11.99
726.502        6.84218        11.9425
727.1        6.84758        11.9162
727.697        6.85265        11.8704
728.295        6.85703        11.8428
728.893        6.8649        11.7955
729.49        6.87043        11.7606
730.088        6.8767        11.716
730.686        6.88045        11.6847
731.283        6.887        11.6575
731.881        6.89279        11.6039
732.479        6.89757        11.5829
733.076        6.90495        11.5233
733.674        6.9108        11.4978
734.271        6.91752        11.4514
734.869        6.92148        11.4098
735.467        6.92767        11.3643
736.064        6.93677        11.3144
736.662        6.94084        9.81576
736.762        6.97026        -0.842728